Folder: thesis-2020/jupyter_notebooks

Note: README.md
# thesis-2020
The thesis proposal

File: battery_1_data.csv
Cycle,Discharge_Capacity(Ah)
1,2.28612
2,2.29056
3,2.30787
4,2.30805
5,2.31882
6,2.31497
7,2.32462
8,2.32695
9,2.32412
10,2.322
11,2.31577
12,2.32167
13,2.32243
14,2.32247
15,2.33208
16,2.34208
17,2.32442
18,2.31941
19,2.32098
20,2.31833
21,2.32031
22,2.31688
23,2.31978
24,2.32978
25,2.32088
26,2.31199
27,2.31539
28,2.31171
29,2.31333
30,2.31923
31,2.31155
32,2.32155
33,2.3202
34,2.31455
35,2.32455
36,2.31228
37,2.30839
38,2.31839
39,2.31881
40,2.31464
41,2.30863
42,2.3142
43,2.29743
44,2.30241
45,2.30525
46,2.31525
47,2.31098
48,2.32098
49,2.30929
50,2.30889
51,2.31889
52,2.30643
53,2.30189
54,2.30466
55,2.31466
56,2.30347
57,2.30063
58,2.29901
59,2.29848
60,2.30848
61,2.29834
62,2.29334
63,2.29698
64,2.29328
65,2.29397
66,2.29054
67,2.28672
68,2.26658
69,2.28175
70,2.29175
71,2.27721
72,2.2773
73,2.2873
74,2.28127
75,2.27117
76,2.27851
77,2.27386
78,2.28386
79,2.27933
80,2.27753
81,2.27744
82,2.28744
83,2.2743
84,2.27088
85,2.27154
86,2.26589
87,2.27589
88,2.26294
89,2.25375
90,2.26375
91,2.25574
92,2.26377
93,2.2563
94,2.25453
95,2.25687
96,2.24771
97,2.25244
98,2.2434
99,2.24779
100,2.24608
101,2.25608
102,2.24442
103,2.24009
104,2.23971
105,2.23197
106,2.23664
107,2.24664
108,2.23667
109,2.24667
110,2.23529
111,2.2346
112,2.22875
113,2.22937
114,2.22563
115,2.2249
116,2.22084
117,2.21779
118,2.21603
119,2.21126
120,2.22126
121,2.20938
122,2.20702
123,2.20417
124,2.21417
125,2.19981
126,2.20981
127,2.18744
128,2.1854
129,2.1954
130,2.17726
131,2.18093
132,2.19093
133,2.17813
134,2.18813
135,2.16711
136,2.17057
137,2.15833
138,2.16833
139,2.16067
140,2.16135
141,2.15482
142,2.15421
143,2.15357
144,2.14631
145,2.14196
146,2.12976
147,2.11899
148,2.11282
149,2.12282
150,2.109
151,2.08366
152,2.07577
153,2.08577
154,2.05845
155,2.05488
156,2.05783
157,2.06783
158,2.06577
159,2.06842
160,2.05265
161,2.06196
162,2.05161
163,2.05383
164,2.05284
165,2.05016
166,2.04577
167,2.05577
168,2.04104
169,2.04493
170,2.04199
171,2.05199
172,2.02881
173,2.01458
174,2.00232
175,2.01232
176,1.98552
177,1.99292
178,1.98291
179,1.97981
180,1.95479
181,1.96075
182,1.97075
183,1.92444
184,1.90451
185,1.89401
186,1.8965
187,1.87486
188,1.88486
189,1.86893
190,1.87893
191,1.85098
192,1.86098
193,1.84583
194,1.84389
195,1.85389
196,1.84027
197,1.82895
198,1.83895
199,1.81676
200,1.80397
201,1.80496
202,1.79192
203,1.80192
204,1.79479
205,1.78456
206,1.79456
207,1.76995
208,1.7818
209,1.7635
210,1.75731
211,1.74147
212,1.75717
213,1.76717
214,1.73428
215,1.70841